Folder: ds-exam/data/Database Raman

File: Ferrosilite.txt
   100   0.0000000e+00
   183.904   41.4506
   187.76   2.03137
   191.617   2.79272
   195.474   30.402
   199.331   7.87573
   203.188   94.7616
   207.045   196.604
   210.902   253.662
   214.759   459.185
   218.616   569.461
   222.473   549.268
   226.33   598.375
   230.187   419.771
   234.044   216.731
   237.901   136.599
   241.757   48.3119
   245.614   52.1776
   249.471   62.5002
   253.328   78.4814
   257.185   116.886
   261.042   4.97058
   264.899   94.7847
   268.756   50.4584
   272.613   13.6461
   276.47   87.4999
   280.327   168.383
   284.184   78.2396
   288.041   94.2759
   291.898   170.947
   295.755   130.383
   299.611   244.245
   303.468   367.524
   307.325   592.854
   311.182   1008.64
   315.039   1563.53
   318.896   2246.38
   322.753   3114.74
   326.61   3820.26
   330.467   3732.36
   334.324   2842.49
   338.181   1944.33
   342.038   1201.21
   345.895   813.885
   349.752   574.89
   353.609   429.048
   357.466   391.272
   361.322   514.989
   365.179   669.065
   369.036   1015.46
   372.893   1322.6
   376.75   1908.36
   380.607   2439.9
   384.464   2587.44
   388.321   1853.88
   392.178   856.28
   396.035   402.392
   399.892   156.661
   403.749   102.637
   407.606   207.728
   411.463   279.5
   415.32   420.58
   419.176   410.936
   423.033   199.181
   426.89   27.0593
   430.747   52.0475
   434.604   37.5555
   438.461   44.9326
   442.318   89.8088
   446.175   94.629
   450.032   124.907
   453.889   84.3431
   457.746   45.7165
   461.603   4.49109
   465.46   21.8251
   469.317   13.5645
   473.173   27.3118
   477.031   12.0237
   480.887   39.6255
   484.744   24.9946
   488.601   29.938
   492.458   68.6904
   496.315   97.2771
   500.172   235.608
   504.029   367.013
   507.886   609.487
   511.743   784.626
   515.6   784.495
   519.457   734.137
   523.314   857.077
   527.171   996.167
   531.028   1092.63
   534.885   986.227
   538.741   861.66
   542.598   704.272
   546.455   450.643
   550.312   316.732
   554.169   257.874
   558.026   236.098
   561.883   240.248
   565.74   191.625
   569.597   89.4514
   573.454   118.631
   577.311   114.622
   581.168   86.3143
   585.025   9.42444
   588.881   47.0251
   592.739   59.4652
   596.595   21.7191
   600.452   27.436
   604.309   19.6321
   608.166   35.9252
   612.023   2.84778
   615.88   45.7703
   619.737   18.6873
   623.594   106.541
   627.451   89.6704
   631.308   206.388
   635.165   272.159
   639.022   504.179
   642.879   898.442
   646.736   1416.76
   650.592   1861.99
   654.449   2064.75
   658.306   1928.42
   662.163   2203.65
   666.02   2813.19
   669.877   3326.93
   673.734   2672.3
   677.591   1532.74
   681.448   846.111
   685.305   490.464
   689.162   315.529
   693.019   205.906
   696.876   96.1864
   700.733   61.6556
   704.59   57.7775
   708.447   12.0197
   712.303   12.7576
   716.16   34.3561
   720.017   4.65283
   723.874   65.1702
   727.731   33.9045
   731.588   108.059
   735.445   135.524
   739.302   116.936
   743.159   122.787
   747.016   110.978
   750.873   96.4208
   754.73   39.5942
   758.587   10.0277
   762.443   20.1228
   766.301   14.8657
   770.157   7.90613
   774.014   17.528
   777.871   42.3223
   781.728   44.1189
   785.585   40.1108
   789.442   27.1534
   793.299   43.4551
   797.156   82.5369
   801.013   129.46
   804.87   93.0521
   808.727   123.256
   812.584   104.659
   816.441   100.856
   820.298   108.093
   824.154   118.545
   828.011   105.314
   831.868   65.4013
   835.725   75.8773
   839.582   78.4727
   843.439   2.40295
   847.296   37.0337
   851.153   13.1029
   855.01   3.51257
   858.867   12.2273
   862.724   61.3767
   866.581   62.3801
   870.438   66.5209
   874.295   111.309
   878.152   165.507
   882.009   204.249
   885.865   205.644
   889.722   164.148
   893.579   169.384
   897.436   62.662
   901.293   21.0045
   905.15   32.8889
   909.007   12.6283
   912.864   6.37573
   916.721   11.1089
   920.578   15.384
   924.435   6.85547
   928.292   74.843
   932.149   111.847
   936.006   213.326
   939.862   440.545
   943.719   704.539
   947.576   890.194
   951.433   850.409
   955.29   509.462
   959.147   236.588
   963.004   92.9346
   966.861   33.3025
   970.718   93.593
   974.575   239.308
   978.432   532.474
   982.289   1104.07
   986.146   2247.23
   990.003   3982.55
   993.86   5484.68
   997.716   5396.07
   1001.57   3811.15
   1005.43   2287.12
   1009.29   1371.09
   1013.14   880.692
   1017   593.153
   1020.86   391.873
   1024.71   288.413
   1028.57   259.901
   1032.43   251.589
   1036.29   126.697
   1040.14   54.8772
   1044   39.8413
   1047.86   4.27856
   1051.71   26.9849
   1055.57   47.9734
   1059.43   9.2627
   1063.28   5.2063
   1067.14   20.4575
   1071   0.61084
   1074.86   58.7412
   1078.71   4.06177
   1082.57   41.8496
   1086.43   55.014
   1090.28   80.6897
   1094.14   88.613
   1098   90.9939
   1101.85   108.051
   1105.71   82.1382
   1109.57   88.0632
   1113.42   111.472
   1117.28   66.0276
   1121.14   43.5356
   1124.99   23.0056
   1128.85   10.7887
   1132.71   61.3292
   1136.57   59.5459
   1140.42   24.2727
   1144.28   32.5005
   1148.14   53.4202
   1151.99   72.2698
   1155.85   58.3671
   1159.71   41.4344
   1163.57   11.5842
   1167.42   25.976
   1171.28   8.86279
   1175.13   62.2118
   1178.99   79.6883
   1182.85   33.1304
   1186.71   68.8153
   1190.56   4.92627
   1194.42   43.1232
   1198.28   31.5638
   1202.13   45.2018
   1205.99   47.6008
   1209.85   43.9152
   1213.7   55.608
   1217.56   1.69763
   1221.42   50.6946
   1225.28   53.1079
   1229.13   52.7252
   1232.99   37.2396
   1236.85   41.2487
   1240.7   38.0496
   1244.56   4.34863
   1248.42   36.4587
   1252.27   46.1813
   1256.13   65.3966
   1259.99   29.0179
   1263.85   24.0787
   1267.7   52.9573
   1271.56   29.8163
   1275.42   21.5743
   1279.27   20.7115
   1283.13   5.52588
   1286.99   4.27588
   1290.84   47.4397
   1294.7   59.4938
   1298.56   17.1255
   1500   0.0000000e+00